# MORITA 1989
# @url: http://dx.doi.org/10.1016/0378-4371(89)90133-7
# @description: Constant-volume measurements of water in the critical region
# @source: Morita, T., H. Sato, M. Uematsu, and K. Watanabe, Physica A 156, 436 (1989).
# @units: K,kg/m^3,MPa
# @year: 1989
# @species: H2O
# Columns: Temperature [K], density [kg/m3], pressure [MPa]
# column names below:
T,rho,p

641.107000000,503.094000000,21.432000000
641.107000000,607.829000000,34.356400000
642.107000000,513.268000000,22.433300000
642.107000000,606.943000000,34.922800000
638.108000000,122.846000000,18.528300000
638.108000000,535.447000000,21.789900000
638.108000000,610.277000000,32.711500000
646.206000000,455.498000000,22.299500000
646.206000000,489.189000000,23.259200000
646.206000000,550.995000000,27.938000000
646.206000000,603.719000000,37.200800000
646.106000000,160.506000000,20.895400000
646.106000000,455.104000000,22.254200000
646.106000000,548.516000000,27.580400000
646.106000000,600.889000000,36.444800000
645.357000000,156.502000000,20.683000000
645.357000000,451.467000000,21.901000000
645.357000000,492.562000000,23.008200000
645.357000000,546.150000000,26.889100000
645.357000000,610.352000000,38.223900000
645.607000000,181.561000000,21.260100000
645.607000000,436.110000000,21.816300000
645.607000000,483.279000000,22.767200000
645.607000000,538.242000000,26.197700000
645.607000000,609.125000000,38.066900000
645.856000000,166.102000000,20.999600000
645.856000000,451.916000000,22.106200000
645.856000000,500.651000000,23.617200000
645.856000000,555.463000000,28.274500000
645.856000000,588.132000000,33.524800000
647.006000000,221.263000000,21.922300000
647.006000000,397.662000000,22.092000000
647.006000000,475.376000000,23.144500000
647.006000000,532.879000000,26.529600000
647.006000000,594.849000000,35.843500000
648.606000000,207.327000000,22.124900000
648.606000000,266.078000000,22.415300000
648.606000000,328.764000000,22.474800000
648.606000000,399.616000000,22.609800000
648.606000000,473.597000000,23.760800000
648.606000000,544.870000000,28.624800000
648.606000000,596.659000000,37.266700000
648.356000000,206.186000000,22.066600000
648.356000000,259.972000000,22.345600000
648.356000000,329.867000000,22.407800000
648.356000000,403.908000000,22.557900000
648.356000000,452.882000000,23.111500000
648.356000000,502.728000000,24.955400000
648.356000000,547.717000000,28.833500000
648.356000000,600.340000000,37.990900000
648.856000000,180.665000000,21.782800000
648.856000000,235.460000000,22.375000000
648.856000000,303.223000000,22.519800000
648.856000000,355.227000000,22.569900000
648.856000000,403.421000000,22.709900000
648.856000000,480.100000000,24.104200000
648.856000000,541.976000000,28.451000000
648.856000000,599.844000000,38.214000000
648.856000000,125.266000000,19.808300000
648.856000000,172.203000000,21.599300000
648.856000000,272.272000000,22.487900000
648.856000000,333.756000000,22.550200000
648.856000000,434.783000000,22.997000000
648.856000000,493.291000000,24.683900000
647.006000000,195.012000000,21.686700000
647.006000000,287.340000000,22.034600000
647.006000000,359.234000000,22.040800000
647.006000000,448.089000000,22.488800000
647.006000000,496.007000000,23.940700000
647.006000000,547.495000000,28.012300000
646.106000000,453.206000000,22.240300000
646.106000000,546.269000000,27.327000000
646.106000000,602.119000000,36.752200000
646.106000000,430.385000000,21.943800000
646.106000000,502.563000000,23.830200000
646.106000000,553.220000000,28.123500000
646.106000000,602.011000000,36.677800000
646.106000000,496.919000000,23.528100000
646.106000000,550.479000000,27.795700000
646.106000000,600.420000000,36.324800000
644.107000000,447.047000000,21.363700000
644.107000000,505.025000000,22.993900000
644.107000000,553.465000000,26.971800000
644.107000000,609.385000000,37.021900000
652.105000000,202.897000000,22.727100000
652.105000000,262.281000000,23.222000000
652.105000000,329.598000000,23.439000000
652.105000000,397.204000000,23.743100000
652.105000000,445.315000000,24.438700000
652.105000000,495.442000000,26.376300000
